Folder: cryo_fts/data/material_properties

File: kapton_optical_properties.csv
#Data collected from:
# - Smith & Loewenstein 1975 (28.6-182um)
# - Sahin et al. 2019 (160-3000um)

Wavenumber_sigma_cm-1,Refractive_index_n,Absorption_alpha_cm-1
3.33333,1.848,0.0230782
3.3557,1.84815,0.0243919
3.37838,1.84831,0.0257233
3.40136,1.84846,0.0270728
3.42466,1.84861,0.0284408
3.44828,1.84877,0.0298277
3.47222,1.84892,0.0312338
3.4965,1.84908,0.0326596
3.52113,1.84923,0.0341055
3.5461,1.84938,0.0355719
3.57143,1.84954,0.0370592
3.59712,1.84969,0.0385679
3.62319,1.84985,0.0400985
3.64964,1.85,0.0416515
3.67647,1.85015,0.0432273
3.7037,1.85031,0.0448264
3.73134,1.85046,0.0464494
3.7594,1.85061,0.0480966
3.78788,1.85077,0.049769
3.81679,1.85092,0.051467
3.84615,1.85108,0.053191
3.87597,1.85123,0.0549418
3.90625,1.85138,0.05672
3.93701,1.85154,0.0585261
3.96825,1.85169,0.060361
4,1.85185,0.0622251
4.03226,1.852,0.0641189
4.06504,1.85215,0.0660439
4.09836,1.85211,0.0680005
4.13223,1.85201,0.0699895
4.16667,1.8519,0.0720116
4.20168,1.8518,0.0740677
4.23729,1.85169,0.0761586
4.2735,1.85159,0.0782853
4.31034,1.85148,0.0804486
4.34783,1.85138,0.082649
4.38596,1.85128,0.0848886
4.42478,1.85117,0.0871678
4.46429,1.85107,0.0894877
4.5045,1.85096,0.0918494
4.54545,1.85086,0.0942541
4.58716,1.85075,0.0967028
4.62963,1.85065,0.099197
4.6729,1.85054,0.101738
4.71698,1.85044,0.104326
4.7619,1.85034,0.106964
4.80769,1.85023,0.109652
4.85437,1.85013,0.112393
4.90196,1.85006,0.115188
4.9505,1.85003,0.118038
5.0,1.85001,0.120945
5.05051,1.84999,0.123911
5.10204,1.84997,0.126937
5.15464,1.84994,0.130026
5.20833,1.84992,0.133178
5.26316,1.8499,0.136397
5.31915,1.84988,0.139894
5.37634,1.84986,0.145973
5.43478,1.84983,0.152185
5.49451,1.84981,0.158533
5.55556,1.84979,0.165022
5.61798,1.84977,0.171657
5.68182,1.84974,0.178443
5.74713,1.84992,0.185385
5.81395,1.85014,0.192488
5.88235,1.85035,0.199759
5.95238,1.85056,0.207202
6.0241,1.85078,0.214825
6.09756,1.85099,0.222635
6.17284,1.8512,0.230636
6.25,1.85142,0.238838
6.32911,1.85163,0.247247
6.41026,1.85185,0.255872
6.49351,1.85206,0.264721
6.57895,1.85152,0.273803
6.66667,1.85091,0.283127
6.75676,1.85031,0.292703
6.84932,1.8497,0.302541
6.94444,1.84909,0.312653
7.04225,1.84848,0.32305
7.14286,1.84787,0.333743
7.24638,1.84727,0.345175
7.35294,1.84721,0.35916
7.46269,1.84801,0.373561
7.57576,1.8488,0.388399
7.69231,1.84959,0.403693
7.8125,1.85038,0.419464
7.93651,1.85117,0.435738
8.06452,1.85196,0.452535
8.19672,1.85188,0.469883
8.33333,1.85116,0.487811
8.47458,1.85044,0.506345
8.62069,1.84973,0.525519
8.77193,1.84901,0.545365
8.92857,1.84829,0.56592
9.09091,1.84873,0.587223
9.25926,1.84918,0.611108
9.43396,1.84962,0.641487
9.61538,1.85006,0.673034
9.80392,1.85036,0.705819
10.0,1.85061,0.739914
10.2041,1.85086,0.775403
10.4167,1.8511,0.812369
10.6383,1.85076,0.850908
10.8696,1.84955,0.891122
11.1111,1.84835,0.933124
11.3636,1.8472,0.982465
11.6279,1.84841,1.0346
11.9048,1.84961,1.08922
12.1951,1.85017,1.14651
12.5,1.84866,1.20666
12.8205,1.84715,1.26989
13.1579,1.8473,1.33715
13.5135,1.84889,1.41378
13.8889,1.84986,1.49467
14.2857,1.8492,1.58019
14.7059,1.84848,1.67073
15.1515,1.8476,1.76823
15.625,1.84806,1.88604
16.129,1.85008,2.01145
16.6667,1.84734,2.14523
17.2414,1.84614,2.29122
17.8571,1.8488,2.45284
18.5185,1.84654,2.62642
19.2308,1.84683,2.81835
20.0,1.84798,3.03754
20.8333,1.84516,3.27503
21.7391,1.84696,3.54883
22.7273,1.84384,3.85028
23.8095,1.8461,4.17308
25,1.84336,4.52952
26.3158,1.84334,4.96028
27.7778,1.84452,5.42728
29.4118,1.84211,5.95435
31.25,1.84102,6.56228
33.3333,1.84062,7.23015
35.7143,1.83937,7.95519
38.4615,1.83593,8.83836
41.6667,1.83417,9.83177
45.4545,1.83131,10.7115
50,1.82601,11.6557
55.5556,1.82088,12.3654
60.0,1.77,3.1
65.0,1.781,7.5
75.0,1.785,7.8
85.0,1.793,8.3
95.0,1.806,16.0
105.0,1.808,32.2
115.0,1.804,49.3
125.0,1.805,59.1
135.0,1.811,84.8
145.0,1.808,146.3
155.0,1.792,171.1
165.0,1.738,254.5
175.0,1.709,128.2
185.0,1.723,97.5
195.0,1.73,94.5
205.0,1.726,102.2
215.0,1.726,72.9
225.0,1.723,61.4
235.0,1.743,59.2
245.0,1.758,80.1
255.0,1.745,155.9
265.0,1.721,126.0
275.0,1.716,85.2
285.0,1.728,57.8
295.0,1.733,44.5
305.0,1.736,38.1
315.0,1.74,42.4
325.0,1.742,54.6
335.0,1.746,48.4
345.0,1.751,42.5
350.0,1.754,40.0

File: mylar_optical_properties.csv
# Smith & Loewenstein (1975)
# "Optical constants of far infrared materials. 3: plastics"
# NOTE: data interpolated to fill in nans from raw data

Wavenumber_sigma_cm-1,Refractive_index_n,Absorption_alpha_cm-1
50.0,1.7345,13.0
52.9293,1.73479,16.3687
55.8586,1.73509,19.7374
58.7879,1.73538,23.1061
61.7172,1.73576,25.702
64.6465,1.7362,27.7525
67.5758,1.73664,29.803
70.5051,1.73692,32.0556
73.4343,1.73648,35.2778
76.3636,1.73605,38.5
79.2929,1.73561,41.7222
82.2222,1.7335,44.7222
85.1515,1.73086,47.6515
88.0808,1.72823,50.5808
91.0101,1.72574,52.096
93.9394,1.72355,50.9242
96.8687,1.72135,49.7525
99.798,1.71915,48.5808
102.727,1.719,47.2727
105.657,1.719,45.9545
108.586,1.719,44.6364
111.515,1.71968,44.5303
114.444,1.721,45.5556
117.374,1.72232,46.5808
120.303,1.72355,47.8333
123.232,1.72398,51.0556
126.162,1.72442,55.2071
129.091,1.72486,60.7727
132.02,1.72146,66.9444
134.949,1.71634,73.3889
137.879,1.71121,85.8788
140.808,1.70681,91.202
143.737,1.70432,77.4343
146.667,1.70183,69.3333
149.596,1.69934,65.5253
152.525,1.69988,62.2222
155.455,1.70091,59
158.384,1.70193,55.7778
161.313,1.70316,54.1313
164.242,1.70462,54.4242
167.172,1.70609,54.7172
170.101,1.70751,55.0758
173.03,1.70765,57.2727
175.96,1.7078,59.4697
178.889,1.70794,61.6667
181.818,1.708,63.2273
184.747,1.708,64.399
187.677,1.708,65.5707
190.606,1.70803,66.3485
193.535,1.70818,65.6162
196.465,1.70832,64.8838
199.394,1.70847,64.1515
202.323,1.7092,64.1162
205.253,1.71008,64.2626
208.182,1.71095,64.4091
211.111,1.71183,65.2778
214.04,1.71271,67.3283
216.97,1.71359,69.3788
219.899,1.71447,71.4293
222.828,1.71436,75.0354
225.758,1.71421,78.697
228.687,1.71407,82.3586
231.616,1.71352,85.1313
234.545,1.71264,87.1818
237.475,1.71176,89.2323
240.404,1.711,90.9192
243.333,1.711,90.3333
246.263,1.711,89.7475
249.192,1.711,89.1616
252.121,1.71132,89.7424
255.051,1.71176,90.7677
257.98,1.7122,91.7929
260.909,1.71264,93.4091
263.838,1.71308,96.3384
266.768,1.71352,99.2677
269.697,1.71395,102.197
272.626,1.71426,105.783
275.556,1.71456,109.444
278.485,1.71485,113.106
281.414,1.715,115.707
284.343,1.715,117.172
287.273,1.715,118.636
290.202,1.71505,119.909
293.131,1.71578,118.591
296.061,1.71652,117.273
298.99,1.71725,115.955
301.919,1.71836,116.268
304.848,1.71968,117.439
307.778,1.721,118.611
310.707,1.72239,119.96
313.636,1.724,121.864
316.566,1.72561,123.768
319.495,1.72722,125.672
322.424,1.72871,128.182
325.354,1.73018,130.818
328.283,1.73164,133.455
331.212,1.73305,136.515
334.141,1.73436,140.177
337.071,1.73568,143.838
340.0,1.737,147.5